Folder: La_Jara/Hysteresis/Spring_2023

File: SP23_up_sonde.csv
Date_Time,Actual Conductivity (uS/cm) (923301),Specific Conductivity (uS/cm) (923301),Salinity (PSU) (923301),Resistivity (ohm cm) (923301),Density (g/cm3) (923301),Total Dissolved Solids (ppt) (923301),Turbidity (NTU) (922381),FDOM Fluorescence (RFU) (910042),Temperature (C) (927764),External Voltage (V) (927764),Battery Capacity (%) (927764),Barometric Pressure (mm Hg) (927764),Pressure (kPa) (925780),Depth (m) (925780)
4/17/2023 12:14,0,0,4.66E-10,1.00E+07,0.9973217,0,3.816212,0.0121108,23.90946,0.108,99,77.92348,0.1771531,-0.04249595
4/17/2023 18:29,34.46516,56.04797,0.02486394,29014.8,0.9999892,0.03643118,18.9845,0.8856248,4.838883,0,99,72.83847,1.978037,0.1920053
4/18/2023 0:44,34.39014,57.81106,0.02559297,29078.1,0.9999954,0.03757719,11.75775,0.8823828,3.78907,0,99,72.86847,1.980582,0.1936167
4/18/2023 6:59,34.60506,58.56166,0.02592463,28897.5,0.9999947,0.03806508,13.54332,0.7788397,3.582029,0,99,72.78548,1.826797,0.1760789
4/18/2023 13:14,37.93486,57.64223,0.02581236,26360.98,0.9999202,0.03746745,14.06466,0.6720007,7.099934,0,99,72.67847,1.895543,0.197132
4/18/2023 19:29,33.77261,55.46368,0.02455686,29609.8,0.9999924,0.03605139,15.18922,0.9495546,4.524288,0,99,72.59848,1.986539,0.1977404
4/19/2023 1:44,34.07769,57.17915,0.02530048,29344.71,0.9999953,0.03716645,12.64392,0.8863556,3.847181,0,99,72.78047,1.813088,0.1757427
4/19/2023 7:59,34.45589,57.68671,0.0255479,29022.61,0.9999956,0.03749636,31.66414,0.7773276,3.915883,0,99,72.66947,1.853138,0.1823573
4/19/2023 14:14,36.80919,56.5617,0.02526713,27167.13,0.9999369,0.03676511,13.51507,0.6987501,6.716195,0,99,72.52748,1.87535,0.196359
4/19/2023 20:29,33.70492,56.03319,0.02478848,29669.26,0.9999948,0.03642157,12.35183,0.8611038,4.13702,0,99,72.69848,1.923652,0.1910267
4/20/2023 2:44,33.2805,57.11,0.02519062,30047.63,0.9999899,0.0371215,11.62924,0.7555932,3.154126,0,99,72.93647,1.91686,0.191246
4/20/2023 8:59,33.53065,57.3641,0.02532119,29823.46,0.9999912,0.03728667,11.03762,0.6827133,3.247288,0,99,73.18948,1.800299,0.1772461
4/20/2023 15:14,36.1409,56.53868,0.02520867,27669.48,0.9999596,0.03675014,11.84244,0.653013,6.111221,0,98,73.15647,1.770558,0.1693461
4/20/2023 21:29,33.77744,56.99584,0.02519487,29605.56,0.9999946,0.0370473,13.03298,0.6755078,3.671724,0,98,73.28147,1.849969,0.1820451
4/21/2023 3:44,33.19615,57.51809,0.02534827,30123.97,0.9999854,0.03738676,8.810134,0.6479996,2.860878,0,98,73.36948,1.813502,0.1885986
4/21/2023 9:59,34.43572,57.04295,0.0252782,29039.61,0.9999948,0.03707792,8.485124,0.6234271,4.250292,0,98,73.40347,1.770716,0.1790929
4/21/2023 16:14,35.67155,55.90925,0.02490341,28033.55,0.9999614,0.03634101,9.850156,0.6443223,6.048475,0,98,73.12447,1.798365,0.1775142
4/21/2023 22:29,33.89426,56.44917,0.02497963,29503.52,0.9999951,0.03669196,8.143939,0.6616532,4.080558,0,98,73.18648,1.782085,0.1718968
4/22/2023 4:44,33.94989,56.92251,0.02518158,29455.18,0.9999952,0.03699963,8.360759,0.6350968,3.87031,0,98,73.03348,1.762819,0.1685636
4/22/2023 10:59,35.16531,56.66054,0.02518262,28437.11,0.9999847,0.03682935,6.565741,0.6130235,5.137772,0,98,73.02948,1.731501,0.1728911
4/22/2023 17:14,34.91732,55.02565,0.02446751,28639.08,0.9999667,0.03576667,9.580073,0.6680195,5.867252,0,98,72.84347,1.795229,0.1764497
4/22/2023 23:29,33.52494,55.94706,0.02473547,29828.54,0.999995,0.03636559,7.103741,0.6691239,4.017073,0,98,73.00348,1.827836,0.1805133
4/23/2023 5:44,33.11362,56.51899,0.02493064,30199.05,0.9999917,0.03673734,8.16649,0.638754,3.318585,0,98,72.96348,1.73995,0.1766579
4/23/2023 11:59,36.3243,55.63937,0.0248344,27529.78,0.9999319,0.0361656,7.307646,0.6011937,6.824731,0,98,72.97748,1.699058,0.1620318
4/23/2023 18:14,33.90751,53.99904,0.02395002,29491.99,0.9999756,0.03509938,8.097101,0.7651054,5.519791,0,98,72.87948,1.792836,0.1769418
4/24/2023 0:29,32.98955,55.11201,0.02433692,30312.63,0.9999947,0.03582281,6.734602,0.6994141,3.983818,0,98,72.94848,1.774411,0.1728552
4/24/2023 6:44,33.05561,55.54431,0.0245227,30252.05,0.9999945,0.0361038,25.22061,0.6603939,3.802173,0,98,72.86247,1.769743,0.1841403
4/24/2023 12:59,35.98991,54.32521,0.02424112,27785.56,0.9999077,0.03531139,12.04684,0.6332304,7.329319,0,98,72.83547,1.83119,0.1773181
4/24/2023 19:14,32.91769,52.94556,0.02342169,30378.8,0.9999822,0.03441461,10.05627,0.6788094,5.195143,0,98,72.74947,1.866309,0.1895777
4/25/2023 1:29,32.60007,54.05492,0.02385984,30674.78,0.9999938,0.0351357,12.01816,0.7332979,4.219459,0,97,72.80748,1.771545,0.1750058
4/25/2023 7:44,32.66878,54.53076,0.0240645,30610.26,0.9999945,0.03544499,10.78097,2.188158,4.009895,0,97,72.72148,1.726793,0.1732621
4/25/2023 13:59,34.22843,54.32539,0.02411463,29215.48,0.9999729,0.0353115,10.02344,0.549059,5.631581,0,97,72.66048,1.716009,0.1735165
4/25/2023 20:14,33.41087,54.80847,0.02424952,29930.38,0.9999919,0.03562551,12.65064,0.5849287,4.559852,0,97,72.65247,1.73446,0.1673975
4/26/2023 2:29,32.33245,55.15256,0.02428798,30928.68,0.9999914,0.03584917,5.187714,1.052414,3.336991,0,97,72.68448,1.7407,0.1683376
4/26/2023 8:44,32.38104,54.92513,0.02419934,30882.27,0.9999928,0.03570133,5.780804,0.7105225,3.51041,0,97,72.90248,1.64685,0.1642515
4/26/2023 14:59,34.90241,54.2476,0.02413272,28651.32,0.9999512,0.03526094,14.4598,0.5555408,6.329364,0,97,73.10047,1.594766,0.1611558
4/26/2023 21:14,33.46961,54.89591,0.02429148,29877.85,0.9999918,0.03568234,6.244116,0.6073876,4.565037,0,97,73.24248,1.591551,0.1545412
4/27/2023 3:29,32.70978,55.19266,0.0243429,30571.89,0.9999939,0.03587523,8.955453,0.8142852,3.672634,0,97,73.13947,1.539895,0.1673232
4/27/2023 9:44,33.48843,54.48408,0.02412011,29861.06,0.9999888,0.03541465,6.103528,1.67971,4.824409,0,97,73.12247,1.507064,0.1480369
4/27/2023 15:59,35.23991,52.6966,0.02348221,28376.91,0.9998897,0.03425279,8.482873,0.6408541,7.656133,0,97,72.86748,1.70199,0.1706308
4/27/2023 22:14,32.31927,52.75856,0.02329139,30941.29,0.9999894,0.03429307,6.034987,0.7542558,4.716659,0,97,72.89148,1.679634,0.1663417
4/28/2023 4:29,31.65102,53.23903,0.02342955,31594.55,0.9999936,0.03460537,6.793616,1.320163,3.770044,0,97,72.80247,1.595529,0.1737276
4/28/2023 10:44,32.81588,52.77387,0.02334048,30473.05,0.9999821,0.03430301,15.74726,0.7904751,5.200033,0,97,73.28947,1.615373,0.1581063
4/28/2023 16:59,34.18119,52.92048,0.02350892,29255.85,0.9999459,0.03439831,15.79821,0.6646989,6.460591,0,97,73.29347,1.612941,0.1615372
4/28/2023 23:14,32.47836,53.7827,0.02373488,30789.74,0.9999935,0.03495875,5.274611,0.6674737,4.260792,0,96,73.55247,1.555261,0.1473229
4/29/2023 5:29,31.79084,53.95764,0.02374048,31455.6,0.9999923,0.03507246,5.853256,1.199088,3.491172,0,96,73.61048,1.516855,0.1497412
4/29/2023 11:44,35.20568,52.82037,0.02353423,28404.51,0.999896,0.03433324,5.207494,0.6612138,7.540161,0,96,73.69048,1.485629,0.148562
4/29/2023 17:59,33.57079,50.98598,0.02262915,29787.8,0.9999169,0.03314089,14.15878,1.670553,7.116846,0,96,73.49947,1.777817,0.1798301
4/30/2023 0:14,31.35923,51.24542,0.02257042,31888.54,0.9999893,0.03330953,9.580628,0.6132998,4.682826,0,96,73.50748,1.727529,0.1740441
4/30/2023 6:29,31.11111,51.84542,0.02279865,32142.85,0.9999933,0.03369952,10.93369,1.280156,4.061494,0,96,73.36848,1.6557,0.1600066
4/30/2023 12:44,35.08017,50.8685,0.02266715,28506.13,0.9998196,0.03306452,20.41704,0.6253827,8.749983,0,96,73.36348,1.639998,0.1606524
4/30/2023 18:59,31.24272,48.11948,0.02122825,32007.46,0.999937,0.03127766,41.58507,0.6776667,6.637367,0,96,73.19147,1.74093,0.1571829
5/1/2023 1:14,29.91477,49.19426,0.02158041,33428.3,0.9999904,0.03197627,20.80799,1.346286,4.4814,0,96,73.27348,1.632022,0.1452297
5/1/2023 7:29,29.93419,49.92854,0.02188893,33406.62,0.9999926,0.03245355,7.968016,0.712327,4.03354,0,96,73.20147,1.550231,0.137748
5/1/2023 13:44,33.84814,49.00106,0.02177289,29543.72,0.9998146,0.03185069,11.38931,0.7175393,8.809609,0,96,73.10947,1.667759,0.1421394
5/1/2023 19:59,30.67236,47.83115,0.02106324,32602.64,0.9999527,0.03109025,20.69684,0.8484206,6.217976,0,96,72.99448,1.6735,0.1524432
5/2/2023 2:14,29.78999,48.59545,0.02131779,33568.33,0.9999876,0.03158704,9.536092,0.7761605,4.73927,0,96,73.05048,1.587264,0.1409851
5/2/2023 8:29,30.15304,48.93264,0.02149132,33164.15,0.9999855,0.03180622,8.503922,0.6450636,4.90656,0,96,73.25348,1.53668,0.1426478
5/2/2023 14:44,33.00375,48.60115,0.02154968,30299.59,0.9998558,0.03159075,13.02515,0.6317793,8.197554,0,96,73.16348,1.573843,0.1408714
5/2/2023 20:59,30.39984,47.74716,0.02100696,32894.91,0.9999605,0.03103566,9.700261,1.025216,5.978201,0,96,73.27448,1.625716,0.1518276
5/3/2023 3:14,29.69752,48.46023,0.02125279,33672.85,0.9999877,0.03149915,7.370012,0.6300732,4.728921,0,95,73.32248,1.560292,0.1350161
5/3/2023 9:29,30.99213,48.72778,0.02147189,32266.26,0.999962,0.03167306,6.600407,0.5775901,5.943765,0,95,73.33347,1.494282,0.118361
5/3/2023 15:44,33.96196,47.95481,0.02131131,29444.71,0.9997428,0.03117063,27.06573,0.6170095,9.722903,0,95,73.05547,1.545195,0.140873
5/3/2023 21:59,30.19834,47.46,0.02086871,33114.4,0.9999611,0.030849,18.47604,0.9362404,5.957611,0,95,73.03947,1.815941,0.1704073
5/4/2023 4:14,29.82927,48.30412,0.02119832,33524.12,0.9999843,0.03139767,11.71823,0.6827216,4.975424,0,95,72.99348,1.727075,0.1553164
5/4/2023 10:29,31.80171,48.46367,0.02141544,31444.85,0.9999214,0.03150139,7.574008,0.607502,6.999832,0,95,73.04347,1.547542,0.1360871
5/4/2023 16:44,32.68606,47.52087,0.02105434,30594.08,0.9998249,0.03088856,18.13721,0.7111189,8.655783,0,95,72.86548,1.630484,0.1336858
5/4/2023 22:59,29.84128,48.04981,0.02109175,33510.63,0.999981,0.03123238,7.858057,2.623775,5.159624,0,95,73.06748,1.600677,0.1448414
5/5/2023 5:14,29.24473,48.86856,0.02138225,34194.2,0.9999923,0.03176457,33.0261,0.820753,3.975724,0,95,73.06348,1.648927,0.1556567
5/5/2023 11:29,32.45972,48.54659,0.02149358,30807.42,0.9998883,0.03155528,8.415183,1.736995,7.650797,0,95,73.07648,1.604873,0.1534023
5/5/2023 17:44,32.66176,48.68553,0.02156677,30616.85,0.9998818,0.0316456,10.26145,1.792582,7.768165,0,95,72.94447,1.725846,0.164991
5/5/2023 23:59,0,0,1.16E-10,1.00E+07,0.9994944,0,1.958771,0.000307955,12.04607,0,95,77.94347,0.174957,-0.01055226
5/6/2023 6:14,0,0,0,1.00E+07,0.9999033,0,1.699395,0.001380332,7.020784,0,95,78.09347,0.1761931,-0.009929227
5/6/2023 12:29,0,0,0,1.00E+07,0.9987084,0,1.598828,0,17.38933,0,95,78.04548,0.2449845,-0.00269313
5/6/2023 18:44,0,0,0,1.00E+07,0.996903,0,1.271209,0,25.55984,0.126,95,77.76147,0.1442501,-0.01592745
5/6/2023 18:59,0,0,0,1.00E+07,0.997033,0,1.250476,0,25.05826,0.108,95,77.73647,0.1261087,-0.009562967